Folder: matl-db/Non-charring/PMMA/NIST

Note: README.md
#### How to Submit Experimental Data

Experimental and Modeling Results will be submitted, stored, and made publicly available on the [MaCFP GitHub Repository](https://github.com/MaCFP/matl-db/tree/master/Non-charring/PMMA). Experimental data may be shared by submitting pull requests to this repository or by sending data via email to [Dr. Morgan Bruns] (mailto:brunsmc@vmi.edu).

###### File Format 
Experimental and Model results should be organized in simple ASCII comma-delimited files (*.csv files) with clear header names.  Note: For all submitted measurement data, please ensure that results are obtained with a data acquisition rate of 1 Hz (for bench scale measurements; e.g. cone calorimeter) and between 2 and 5 K^-1 (for mg-scale experiments; e.g. TGA). Examples of how to format data submissions, which may be used as templates, are included [here] (https://github.com/MaCFP/matl-db/tree/master/Non-charring/PMMA).

###### File Naming
For simplicity, please collect your files in a single folder with your INSTITUTE name [INSTITUTE]. Please save measurement results with a name indicating your INSTITUTE and the experimental apparatus used, for example: INSITUTE\_TGA.csv or Institute\_ConeCalorimeter_25kW.csv.  Gram-scale experiments (e.g., Cone, FPA, gasification) should include this external heat flux information in the file name, as indicated above; mg-scale experiments (e.g., TGA, DSC, MCC) do not need to include heating rate in the filename as this information will be evident from reported data.



###### File Organization
Measurement data from repeated experiments should be saved and submitted as separate files, numbered sequentially (e.g.,INSITUTE\_TGA1.csv and INSITUTE\_TGA2.csv). 


###### File Description
Please also include a separate README file (.txt or .docx) that provides a description of the test conditions of all experiments conducted and submitted (see the Measurements section of [Guidelines for Participation_MaCFP2020.pdf](https://github.com/MaCFP/matl-db/), for details on what information should be included in this file).   

Note, some iteration on formatting may be required before the results can be merged into the MaCFP database.

File: NIST_TGA_N2_10K_1.csv
Time,Temperature,Mass
s,K,mg
0,300.997,4.1661
15,301.501,4.16515
30,302.167,4.16757
45,303.007,4.16622
60,304.041,4.1663
75,305.275,4.1667
90,306.72,4.1654
105,308.362,4.16655
120,310.213,4.164
135,312.258,4.1633
150,314.495,4.16403
165,316.905,4.16535
180,319.473,4.16675
195,322.172,4.16472
210,324.996,4.16535
225,327.922,4.16525
240,330.942,4.16442
255,334.035,4.16202
270,337.182,4.16387
285,340.381,4.16572
300,343.607,4.16893
315,346.851,4.16582
330,350.117,4.16258
345,353.397,4.16675
360,356.693,4.1667
375,360.005,4.1662
390,363.3299,4.16405
405,366.657,4.163
420,369.976,4.16435
435,373.285,4.1646
450,376.581,4.16487
465,379.852,4.1663
480,383.101,4.16403
495,386.318,4.16563
510,389.512,4.16405
525,392.684,4.16555
540,395.821,4.16643
555,398.945,4.1667
570,402.036,4.16555
585,405.1139,4.16503
600,408.167,4.16382
615,411.189,4.16617
630,414.187,4.16527
645,417.159,4.16323
660,420.104,4.16532
675,423.014,4.16422
690,425.905,4.16422
705,428.756,4.16327
720,431.577,4.16038
735,434.369,4.16468
750,437.143,4.16145
765,439.884,4.1606
780,442.6081,4.15928
795,445.302,4.15988
810,447.98,4.15888
825,450.641,4.1575
840,453.283,4.1561
855,455.915,4.15225
870,458.534,4.15187
885,461.14,4.1513
900,463.732,4.14702
915,466.308,4.1405
930,468.874,4.1364
945,471.428,4.13452
960,473.972,4.13235
975,476.515,4.1288
990,479.041,4.12485
1005,481.56,4.122
1020,484.0679,4.11958
1035,486.568,4.114375
1050,489.0669,4.11243
1065,491.559,4.11045
1080,494.051,4.10515
1095,496.527,4.10218
1110,499.007,4.0975
1125,501.479,4.095
1140,503.954,4.0971
1155,506.422,4.09115
1170,508.89,4.08883
1185,511.359,4.08232
1200,513.826,4.08182
1215,516.29,4.07633
1230,518.751,4.0746
1245,521.211,4.07435
1260,523.675,4.07593
1275,526.144,4.06968
1290,528.605,4.06873
1305,531.074,4.06823
1320,533.538,4.065
1335,536.008,4.06375
1350,538.474,4.06098
1365,540.941,4.0589
1380,543.406,4.05725
1395,545.87,4.05182
1410,548.337,4.05222
1425,550.808,4.04868
1440,553.275,4.04628
1455,555.747,4.04365
1470,558.21,4.0391
1485,560.678,4.0277
1500,563.147,4.03295
1515,565.618,4.02352
1530,568.082,4.01515
1545,570.558,4.00743
1560,573.03,4.00715
1575,575.505,3.99467
1590,577.986,3.9859
1605,580.457,3.97623
1620,582.933,3.96858
1635,585.408,3.95713
1650,587.877,3.94275
1665,590.358,3.93173
1680,592.831,3.9144
1695,595.305,3.89825
1710,597.779,3.87252
1725,600.25,3.8465
1740,602.719,3.8145
1755,605.194,3.7734
1770,607.672,3.7252
1785,610.142,3.66903
1800,612.619,3.59682
1815,615.094,3.51283
1830,617.569,3.42875
1845,620.053,3.32275
1860,622.526,3.20428
1875,624.995,3.07013
1890,627.471,2.9192
1905,629.94,2.76445
1920,632.413,2.58835
1935,634.8899,2.39813
1950,637.368,2.20075
1965,639.85,1.99925
1980,642.3259,1.79277
1995,644.8101,1.58522
2010,647.282,1.38598
2025,649.752,1.18695
2040,652.22,1.00265
2055,654.685,0.82525
2070,657.16,0.665875
2085,659.642,0.526325
2100,662.142,0.4051
2115,664.642,0.30445
2130,667.143,0.2312
2145,669.641,0.17365
2160,672.145,0.125475
2175,674.643,0.08775
2190,677.143,0.0563749
2205,679.641,0.03495
2220,682.14,0.0181249
2235,684.642,0.007249946
2250,687.139,0.003699991
2265,689.633,-0.002224982
2280,692.124,-0.007950172
2295,694.611,-0.0135998
2310,697.091,-0.0108002
2325,699.559,-0.016025
2340,702.023,-0.0138001
2355,704.492,-0.0130251
2370,706.955,-0.0173251
2385,709.42,-0.0173251
2400,711.894,-0.01865
2415,714.367,-0.020875
2430,716.839,-0.0191752
2445,719.314,-0.015625
2460,721.788,-0.0167001
2475,724.262,-0.0197999
2490,726.735,-0.0187
2505,729.211,-0.01662492
2520,731.69,-0.0190249
2535,734.16,-0.0197251
2550,736.635,-0.0183499
2565,739.116,-0.01395
2580,741.593,-0.0161749
2595,744.071,-0.0176001
2610,746.553,-0.0158999
2625,749.035,-0.01775
2640,751.51,-0.0176001
2655,753.988,-0.0185249
2670,756.471,-0.0241998
2685,758.954,-0.0142249
2700,761.432,-0.0144999
2715,763.921,-0.0157501
2730,766.398,-0.0211
2745,768.882,-0.021775
2760,771.371,-0.01610017
2775,773.857,-0.0163
2790,776.337,-0.0183499
2805,778.819,-0.019375
2820,781.308,-0.016025
2835,783.795,-0.01610017
2850,786.279,-0.0178251
2865,788.763,-0.0186748
2880,791.251,-0.0187751
2895,793.734,-0.0149999
2910,796.223,-0.0192999
2925,798.71,-0.01725
2940,801.197,-0.0231499
2955,803.689,-0.0168252
2970,806.181,-0.0188998
2985,808.665,-0.0187499
3000,811.156,-0.015125
3015,813.6441,-0.02944981
3030,816.127,-0.0172248
3045,818.619,-0.0163
3060,821.107,-0.0183499
3075,823.6,-0.0241998
3090,826.087,-0.023675
3105,828.58,-0.0209501
3120,831.062,-0.018925
3135,833.55,-0.0210748
3150,836.039,-0.0202251
3165,838.533,-0.020375
3180,841.024,-0.0209249
3195,843.512,-0.0171501
3210,846.007,-0.0180002
3225,848.504,-0.0190749
3240,850.992,-0.0175502
3255,853.483,-0.0192499
3270,855.975,-0.01727519
3285,858.468,-0.019925
3300,860.958,-0.0147249
3315,863.45,-0.02345
3330,865.942,-0.0181001
3345,868.4321,-0.0192751
3360,870.924,-0.0201
3375,873.418,-0.0159499
3390,875.914,-0.01775
3405,878.406,-0.0185749
3420,880.898,-0.0207251
3435,883.393,-0.0171749
3450,885.892,-0.0215752
3465,888.389,-0.0159499
3480,890.886,-0.01727519
3495,893.38,-0.0212998
3510,895.873,-0.0174498
3525,898.371,-0.0162001
3540,900.869,-0.0169251
3555,903.3659,-0.0177
3570,905.861,-0.0152249
3585,908.352,-0.01897496
3600,910.856,-0.0186001
3615,913.351,-0.020325
3630,915.839,-0.0185501
3645,918.331,-0.0168499
3660,920.826,-0.016025
3675,923.332,-0.01779994
3690,925.829,-0.0164998
3705,928.3231,-0.0175749
3720,930.825,-0.0181748
3735,933.322,-0.01465018
3750,935.818,-0.0162001
3765,938.316,-0.0163999
3780,940.817,-0.02065
3795,943.312,-0.015625
3810,945.813,-0.0152001
3825,948.306,-0.0183998
3840,950.804,-0.019425
3855,953.296,-0.017025
3870,955.796,-0.0183751
3885,958.295,-0.0195501
3900,960.793,-0.0149499
3915,963.297,-0.01452508
3930,965.796,-0.0171501
3945,968.295,-0.0182752
3960,970.792,-0.0175002
3975,973.291,-0.0187252
3990,975.787,-0.016025
4005,978.284,-0.01844979
4020,980.779,-0.0215752
4035,983.275,-0.0205249
4050,985.7771,-0.0181748
4065,988.277,-0.0173251
4080,990.784,-0.0203498
4095,993.286,-0.020825
4110,995.777,-0.0195749
4125,998.276,-0.0177248
4134,999.77,-0.0152001